Talasna duzina_Ljubicasta [nm]	 Intenzitet svetlosti_Ljubicasta [cd]
177.812	53.86000061
178.410	56
179.008	43.04000092
179.607	65.33999634
180.205	48.93999863
180.803	68.94000244
181.401	61.65999985
182.000	66.01999664
182.598	48.11999893
183.196	58.63999939
183.794	52.74000168
184.392	57.95999908
184.990	55.02000046
185.588	59.79999924
186.186	62.09999847
186.784	48.88000107
187.382	48.43999863
187.980	65.77999878
188.578	56.59999847
189.176	69.41999817
189.774	47.52000046
190.371	56.38000107
190.969	56.22000122
191.567	60.09999847
192.165	60.41999817
192.763	63.86000061
193.360	54.52000046
193.958	58.72000122
194.556	46.29999924
195.153	57.25999832
195.751	49.47999954
196.349	59.52000046
196.946	52.70000076
197.544	61.02000046
198.141	48.52000046
198.739	50.79999924
199.336	52.11999893
199.934	49.08000183
200.531	49.70000076
201.128	52.5
201.726	57.38000107
202.323	48.72000122
202.920	42.27999878
203.518	59.72000122
204.115	42.22000122
204.712	60.75999832
205.310	47.13999939
205.907	49.13999939
206.504	44
207.101	38.52000046
207.698	33.13999939
208.295	54.68000031
208.892	50.38000107
209.489	44.63999939
210.087	44.81999969
210.684	48.04000092
211.280	39.81999969
211.877	43.20000076
212.474	39.59999847
213.071	48.22000122
213.668	40.40000153
214.265	43.43999863
214.862	37.56000137
215.459	56.95999908
216.055	38.20000076
216.652	43.11999893
217.249	43.88000107
217.846	54.74000168
218.442	55.52000046
219.039	44.77999878
219.636	43.06000137
220.232	43.79999924
220.829	48.77999878
221.425	37.09999847
222.022	48
222.618	54.20000076
223.215	42.91999817
223.811	37.88000107
224.408	47.08000183
225.004	46.56000137
225.601	39.65999985
226.197	47.38000107
226.793	49.25999832
227.390	37.5
227.986	43.91999817
228.582	49.77999878
229.178	54.81999969
229.774	54.97999954
230.371	52.5
230.967	39.79999924
231.563	37.81999969
232.159	48.56000137
232.755	55.54000092
233.351	46.34000015
233.947	42.61999893
234.543	42.38000107
235.139	38.93999863
235.735	37.63999939
236.331	46.24000168
236.927	43.41999817
237.523	38.77999878
238.119	45.70000076
238.714	45.56000137
239.310	48.79999924
239.906	49.79999924
240.502	45.02000046
241.097	39.72000122
241.693	38.86000061
242.289	39.5
242.884	49.43999863
243.480	42.90000153
244.076	49.95999908
244.671	51.81999969
245.267	45.04000092
245.862	49.88000107
246.458	45.77999878
247.053	44.75999832
247.648	39.61999893
248.244	49.22000122
248.839	42.79999924
249.435	44.95999908
250.030	46.81999969
250.625	44.63999939
251.220	39.04000092
251.816	45
252.411	45.47999954
253.006	35.56000137
253.601	49.47999954
254.196	45.38000107
254.791	45.59999847
255.387	52.22000122
255.982	48.22000122
256.577	42.18000031
257.172	43.27999878
257.767	42.91999817
258.362	52.72000122
258.956	45.77999878
259.551	55.29999924
260.146	44.25999832
260.741	55.40000153
261.336	51.06000137
261.931	57.97999954
262.525	53.72000122
263.120	42.45999908
263.715	52.61999893
264.310	41.29999924
264.904	47.20000076
265.499	53.54000092
266.093	52.41999817
266.688	49.06000137
267.282	36.24000168
267.877	49.29999924
268.471	29.84000015
269.066	39.18000031
269.660	30.84000015
270.255	35.43999863
270.849	29.55999947
271.443	28
272.038	26.76000023
272.632	48.36000061
273.226	47
273.821	60.84000015
274.415	73.62000275
275.009	82.81999969
275.603	69.58000183
276.197	65.98000336
276.791	54.97999954
277.385	55.59999847
277.979	47.11999893
278.574	48.29999924
279.168	48.93999863
279.761	53.52000046
280.355	57.20000076
280.949	47.77999878
281.543	51.75999832
282.137	52.88000107
282.731	51.08000183
283.325	48.13999939
283.918	51.95999908
284.512	49.65999985
285.106	34.97999954
285.700	35.22000122
286.293	50.29999924
286.887	36.18000031
287.480	37.63999939
288.074	46.27999878
288.668	49.08000183
289.261	39.70000076
289.855	53.41999817
290.448	63.56000137
291.042	49.36000061
291.635	63.34000015
292.228	62
292.822	62.09999847
293.415	55.79999924
294.008	53.09999847
294.602	48.70000076
295.195	58.5
295.788	59
296.381	62.24000168
296.974	44.54000092
297.567	58.72000122
298.160	46.5
298.754	58.91999817
299.347	45.77999878
299.940	48.74000168
300.533	54.75999832
301.126	54.84000015
301.718	48.56000137
302.311	57
302.904	47.84000015
303.497	55.34000015
304.090	42.04000092
304.683	61.29999924
305.275	45.09999847
305.868	47.11999893
306.461	50.84000015
307.053	57.59999847
307.646	43.70000076
308.239	54.43999863
308.831	51.24000168
309.424	46.36000061
310.016	46.13999939
310.609	57.5
311.201	44.15999985
311.794	49.88000107
312.386	46.63999939
312.979	48.41999817
313.571	46.93999863
314.163	48.40000153
314.756	41.84000015
315.348	49.18000031
315.940	46.97999954
316.532	47.91999817
317.124	54.13999939
317.717	60.59999847
318.309	45.13999939
318.901	48.41999817
319.493	49.59999847
320.085	44.68000031
320.677	45.91999817
321.269	48.02000046
321.861	50.09999847
322.453	46.68000031
323.045	45.95999908
323.636	51.52000046
324.228	48.90000153
324.820	45.95999908
325.412	54.43999863
326.003	53.43999863
326.595	50.11999893
327.187	47.5
327.779	53.40000153
328.370	68.13999939
328.962	35.75999832
329.553	50.81999969
330.145	39.38000107
330.736	59.40000153
331.328	44.79999924
331.919	45.97999954
332.511	50.77999878
333.102	60.79999924
333.693	47.75999832
334.285	54.91999817
334.876	56.31999969
335.467	54.54000092
336.058	43
336.650	51.95999908
337.241	52.52000046
337.832	52.93999863
338.423	45.29999924
339.014	46.56000137
339.605	40.77999878
340.196	62.15999985
340.787	49.5
341.378	48.56000137
341.969	47.43999863
342.560	42.04000092
343.151	47.13999939
343.742	46.41999817
344.332	51.47999954
344.923	52.74000168
345.514	44.15999985
346.105	50.97999954
346.695	44.68000031
347.286	35.84000015
347.877	33.74000168
348.467	44.27999878
349.058	37.54000092
349.648	53.02000046
350.239	44.88000107
350.829	51.95999908
351.420	35.20000076
352.010	49.13999939
352.601	53.90000153
353.191	39.24000168
353.781	44.15999985
354.371	60.40000153
354.962	37.70000076
355.552	43.95999908
356.142	44.88000107
356.732	45.31999969
357.322	40.97999954
357.913	45.22000122
358.503	40.15999985
359.093	50.75999832
359.683	38.52000046
360.273	48.70000076
360.863	54.58000183
361.453	45.90000153
362.042	37.11999893
362.632	43.86000061
363.222	46.61999893
363.812	44.40000153
364.402	35.84000015
364.991	52.20000076
365.581	41.27999878
366.171	44.77999878
366.760	46.08000183
367.350	35.27999878
367.940	40.24000168
368.529	37.81999969
369.119	51.81999969
369.708	57.59999847
370.298	43.68000031
370.887	47.08000183
371.476	44.81999969
372.066	42.72000122
372.655	32.31999969
373.244	51.47999954
373.834	44.68000031
374.423	64
375.012	39.27999878
375.601	52.90000153
376.190	35.77999878
376.779	48.70000076
377.368	34.63999939
377.957	47.04000092
378.546	42.86000061
379.135	42.79999924
379.724	59.29999924
380.313	51.22000122
380.902	46.11999893
381.491	47.20000076
382.080	38.47999954
382.669	50.09999847
383.257	43.88000107
383.846	50.95999908
384.435	46.72000122
385.023	36.34000015
385.612	41.18000031
386.201	54.43999863
386.789	41.18000031
387.378	52.02000046
387.966	44.25999832
388.555	52.11999893
389.143	45.72000122
389.732	56.91999817
390.320	47.52000046
390.908	55.63999939
391.497	47.06000137
392.085	55.25999832
392.673	42.84000015
393.261	72.81999969
393.849	59.38000107
394.438	57.04000092
395.026	45.91999817
395.614	52.04000092
396.202	61.70000076
396.790	52.5
397.378	60.75999832
397.966	64.68000031
398.554	52.43999863
399.142	58.09999847
399.729	53.25999832
400.317	60.13999939
400.905	54.08000183
401.493	50.95999908
402.080	53.15999985
402.668	67.76000214
403.256	65.81999969
403.843	57.58000183
404.431	59.27999878
405.019	65.40000153
405.606	53.06000137
406.194	73.13999939
406.781	76.66000366
407.368	72.69999695
407.956	68.59999847
408.543	62.31999969
409.131	69.63999939
409.718	79.83999634
410.305	72.73999786
410.892	71.23999786
411.479	75.87999725
412.067	66.72000122
412.654	82.08000183
413.241	73.19999695
413.828	67.23999786
414.415	79.04000092
415.002	68.80000305
415.589	87.5
416.176	80.87999725
416.763	93.76000214
417.350	85.86000061
417.936	81.76000214
418.523	90.62000275
419.110	86.91999817
419.697	84
420.283	85.69999695
420.870	100.4400024
421.457	103.9599991
422.043	108.3199997
422.630	114.3799973
423.216	110.2799988
423.803	115.3399963
424.389	128.6999969
424.976	127.7200012
425.562	126.1800003
426.148	145.5800018
426.735	139.3800049
427.321	153.8200073
427.907	168.5
428.494	175.8800049
429.080	187.3800049
429.666	218.3800049
430.252	211.6600037
430.838	232.8600006
431.424	255.5599976
432.010	272.6000061
432.596	298.1799927
433.182	326.7799988
433.768	336.019989
434.354	394.4599915
434.940	425.519989
435.526	457.4400024
436.111	484.2200012
436.697	558.4799805
437.283	589.2600098
437.869	656.1400146
438.454	706.3800049
439.040	787.5800171
439.625	863.7199707
440.211	934.8200073
440.796	1052.5
441.382	1148.040039
441.967	1218.099976
442.553	1359.339966
443.138	1498.719971
443.723	1616.339966
444.309	1793.47998
444.894	1953.23999
445.479	2169.820068
446.064	2366.47998
446.650	2649.76001
447.235	2821.100098
447.820	3107.040039
448.405	3364.679932
448.990	3687.179932
449.575	4075.179932
450.160	4469
450.745	4933.580078
451.330	5365.560059
451.915	5924.100098
452.499	6453.879883
453.084	7163.5
453.669	7825.939941
454.254	8603.379883
454.838	9462.900391
455.423	10504.54004
456.008	11480.62012
456.592	12647.21973
457.177	13829.83984
457.761	15037.66016
458.346	16648.7793
458.930	17912.74023
459.514	19654.85938
460.099	21070.53906
460.683	22981.41992
461.267	24701.66016
461.852	26425.01953
462.436	27989.32031
463.020	29178.90039
463.604	30896.09961
464.188	32270.67969
464.772	33215.03906
465.356	33790.96094
465.940	34648.23828
466.524	35021.14063
467.108	35265.71875
467.692	35376.66016
468.276	35140.66016
468.860	34483.37891
469.444	33773.17969
470.028	32923.28125
470.611	31785.46094
471.195	30770.93945
471.779	29495.16016
472.362	28420.61914
472.946	26774.17969
473.529	25383.2207
474.113	24080.5
474.696	22728.17969
475.280	21456.08008
475.863	20331.38086
476.447	19210.25977
477.030	18161.61914
477.613	17285.59961
478.197	16394.88086
478.780	15435.5
479.363	14772.48047
479.946	14056.62012
480.529	13439.55957
481.112	12843.54004
481.695	12216
482.278	11667.7002
482.861	11025.36035
483.444	10536.01953
484.027	10009.5
484.610	9487.5
485.193	8986.019531
485.776	8505.219727
486.358	8015.120117
486.941	7573.779785
487.524	7058.859863
488.106	6668.080078
488.689	6191.259766
489.272	5792.740234
489.854	5414.640137
490.437	4992.759766
491.019	4680.959961
491.602	4324.339844
492.184	4055.26001
492.766	3772.560059
493.349	3564.360107
493.931	3326.040039
494.513	3114.080078
495.095	2920.560059
495.678	2710.120117
496.260	2571.320068
496.842	2421.97998
497.424	2263.560059
498.006	2153.300049
498.588	2039.02002
499.170	1958.280029
499.752	1832.97998
500.334	1732.219971
500.916	1650.420044
501.497	1573.660034
502.079	1473.579956
502.661	1418.459961
503.243	1351.560059
503.824	1258.400024
504.406	1217.599976
504.987	1129.400024
505.569	1099.780029
506.151	1020
506.732	984.6799927
507.313	906.539978
507.895	870.460022
508.476	827.2999878
509.058	780.4199829
509.639	730.5200195
510.220	683.7399902
510.801	658.960022
511.382	628.3800049
511.964	591.3800049
512.545	567.8200073
513.126	544.2999878
513.707	505.1600037
514.288	495.7799988
514.869	473.2999878
515.450	449.7399902
516.031	441.4400024
516.611	397.1600037
517.192	402.7600098
517.773	372.980011
518.354	378.3200073
518.934	345.1400146
519.515	352.1000061
520.096	337.2999878
520.676	318.9599915
521.257	313.3999939
521.837	309.1000061
522.418	307.1199951
522.998	280.3399963
523.579	276.7600098
524.159	290.3599854
524.739	272.6600037
525.320	265.3599854
525.900	263.2200012
526.480	243.4799957
527.060	250.5
527.640	234.1399994
528.220	221.2400055
528.800	232.0399933
529.380	223.1600037
529.960	212.0800018
530.540	203
531.120	201.3399963
531.700	211.5599976
532.280	198.5800018
532.860	195.6399994
533.440	186.1999969
534.019	177.1600037
534.599	186.0200043
535.179	164.2599945
535.758	168.5200043
536.338	172.8000031
536.917	173.1399994
537.497	162.9400024
538.076	155.4199982
538.656	154.3999939
539.235	172
539.814	150.2799988
540.393	161.5
540.973	158.4199982
541.552	154.7200012
542.131	144.3200073
542.710	143.1799927
543.289	152.2200012
543.868	142.7200012
544.447	148.5399933
545.026	138.8800049
545.605	121.9599991
546.184	137.7400055
546.763	140.9199982
547.342	141.4400024
547.921	139.7599945
548.499	150.9400024
549.078	134.7599945
549.657	136.6600037
550.235	139.0800018
550.814	140.8399963
551.393	137.5599976
551.971	136.3200073
552.550	131.1999969
553.128	132.6399994
553.706	134.3600006
554.285	143.0200043
554.863	127.5999985
555.441	128.2200012
556.020	132.4799957
556.598	146.3800049
557.176	136.5399933
557.754	136.8399963
558.332	144.4199982
558.910	130.7400055
559.488	140.7400055
560.066	130.1799927
560.644	129.5599976
561.222	150.3200073
561.800	131.5
562.378	149.1999969
562.955	144.8800049
563.533	144.3399963
564.111	157.9600067
564.688	150.9400024
565.266	155.1000061
565.844	164.6199951
566.421	168.0599976
566.999	170.5599976
567.576	182.1799927
568.154	179.9600067
568.731	182.9199982
569.308	185.3600006
569.886	183.5800018
570.463	204.5800018
571.040	194.5800018
571.617	217.9400024
572.194	217.6399994
572.771	229.8200073
573.349	233
573.926	253.3600006
574.503	254.4600067
575.079	266.9400024
575.656	282.9400024
576.233	299.4599915
576.810	295.8599854
577.387	335.7999878
577.964	345.5400085
578.540	351.6000061
579.117	377.8599854
579.693	404.3200073
580.270	425.8999939
580.847	452.2799988
581.423	474.7799988
582.000	506.8399963
582.576	534.5999756
583.152	577.8400269
583.729	617.8400269
584.305	658.9400024
584.881	679.6799927
585.457	739.1400146
586.034	778
586.610	833.9799805
587.186	890.2600098
587.762	971.5200195
588.338	1017.23999
588.914	1107.060059
589.490	1199.819946
590.066	1286
590.641	1340.420044
591.217	1463.280029
591.793	1532.880005
592.369	1623.439941
592.945	1752.359985
593.520	1873.23999
594.096	2022.880005
594.671	2187.159912
595.247	2369.939941
595.822	2532.23999
596.398	2699.73999
596.973	2892.879883
597.549	3040.899902
598.124	3198.52002
598.699	3407.840088
599.274	3648.76001
599.850	3927.580078
600.425	4267.700195
601.000	4665.879883
601.575	5114.540039
602.150	5477.439941
602.725	5859.220215
603.300	6242.459961
603.875	6629.359863
604.450	7034.060059
605.024	7625.399902
605.599	8250.339844
606.174	8930.339844
606.749	9789.339844
607.323	10787.21973
607.898	11887.91992
608.473	12906.05957
609.047	13956.08008
609.622	15034.40039
610.196	16052.16016
610.771	17077.51953
611.345	18181.58008
611.919	19497.24023
612.493	20773.35938
613.068	22468.51953
613.642	24248.33984
614.216	26006.61914
614.790	27827.80078
615.364	29545.83984
615.938	30963.17969
616.512	32126.58008
617.086	33407.78125
617.660	34541.80078
618.234	35626.55859
618.808	37174.98047
619.382	38873.67969
619.955	40790.46094
620.529	43776.16016
621.103	48299.33984
621.676	51621.28125
622.250	56015.26172
622.824	57987.83984
623.397	61165.89844
623.971	62584.71875
624.544	63862.44141
625.117	64170.55859
625.691	64400.46094
626.264	64499.23828
626.837	64487.89844
627.410	64246.44141
627.984	63898.62109
628.557	62325.85938
629.130	60050.64063
629.703	56906.28125
630.276	53351.44141
630.849	49393.55859
631.422	45405.46094
631.994	41460.30078
632.567	37681
633.140	34097.35938
633.713	31029.96094
634.285	27698.59961
634.858	24781.64063
635.431	21826.67969
636.003	19144.83984
636.576	16661.96094
637.148	14453.67969
637.721	12614.90039
638.293	11043.45996
638.865	9745.679688
639.438	8671.959961
640.010	7739.640137
640.582	6937.97998
641.154	6164.600098
641.727	5469.399902
642.299	4907.5
642.871	4274.640137
643.443	3773.300049
644.015	3344.120117
644.587	2970.120117
645.159	2663.540039
645.730	2357.76001
646.302	2135.840088
646.874	1902.859985
647.446	1736.579956
648.017	1577.819946
648.589	1413.619995
649.161	1292.619995
649.732	1170.060059
650.304	1055.920044
650.875	957.6799927
651.446	892.7800293
652.018	817.8800049
652.589	745.2399902
653.160	728.7600098
653.732	664.0999756
654.303	608.3800049
654.874	685.3800049
655.445	678.0599976
656.016	562.5200195
656.587	608.4400024
657.158	452.2200012
657.729	581.1400146
658.300	365.4599915
658.871	401.0599976
659.442	286.1000061
660.012	286.2399902
660.583	234.8000031
661.154	228.1399994
661.724	202.4600067
662.295	203.8600006
662.866	191.1999969
663.436	182.1199951
664.007	165.8999939
664.577	160.3000031
665.147	142.7400055
665.718	156.9600067
666.288	139.6000061
666.858	130.2400055
667.428	131.5599976
667.999	137.6600037
668.569	142.2400055
669.139	127.5599976
669.709	125.8199997
670.279	133.1199951
670.849	135.3600006
671.418	134.7799988
671.988	121.1800003
672.558	126.5599976
673.128	132.2400055
673.698	139.0599976
674.267	130.2400055
674.837	148.1199951
675.406	132.1600037
675.976	139.2799988
676.545	149.7400055
677.115	150.9199982
677.684	143.6399994
678.254	143.8399963
678.823	151.1199951
679.392	145.1199951
679.961	149.2599945
680.531	157.9199982
681.100	159.6999969
681.669	168.9799957
682.238	159.0200043
682.807	181.3000031
683.376	172.5800018
683.945	175.3000031
684.514	180.4400024
685.082	179.4600067
685.651	150.3600006
686.220	177.1000061
686.789	171.5
687.357	176.4199982
687.926	162.9600067
688.494	159.7799988
689.063	153.8800049
689.631	165.0599976
690.200	155.2200012
690.768	157.2400055
691.337	159.1799927
691.905	148.8999939
692.473	163.5599976
693.041	162.5
693.609	157.1600037
694.178	165.9799957
694.746	141.8399963
695.314	144.8200073
695.882	155.6999969
696.450	141.2200012
697.017	151.2400055
697.585	144.2200012
698.153	155.1199951
698.721	139.9600067
699.288	143.7799988
699.856	135.5200043
700.424	134.2400055
700.991	136.1399994
701.559	143.8000031
702.126	140.8399963
702.694	135.4199982
703.261	140.7400055
703.828	131.2200012
704.396	144.1000061
704.963	127.3000031
705.530	132.8600006
706.097	123.8399963
706.664	133.1199951
707.232	121.6800003
707.799	133.1199951
708.365	139.3399963
708.932	139.9199982
709.499	125.5599976
710.066	122.0599976
710.633	122.3199997
711.200	121.7399979
711.766	123.9800034
712.333	122.5800018
712.900	119.5
713.466	120.3799973
714.033	116.0199966
714.599	122.2200012
715.166	119.8600006
715.732	112.5599976
716.298	110.7200012
716.865	109.3000031
717.431	113.3399963
717.997	113.3799973
718.563	100.1600037
719.129	103.7600021
719.695	100.6399994
720.261	106.5
720.827	104.7200012
721.393	102.3399963
721.959	95.45999908
722.525	85.41999817
723.091	106.3000031
723.656	96.72000122
724.222	84.98000336
724.788	92.80000305
725.353	92.01999664
725.919	102.1800003
726.484	87.86000061
727.050	84.30000305
727.615	89.77999878
728.181	82.91999817
728.746	87
729.311	80.26000214
729.876	83.40000153
730.442	75.95999908
731.007	71.68000031
731.572	82.36000061
732.137	84.63999939
732.702	89.12000275
733.267	75.22000122
733.832	67.23999786
734.397	79.81999969
734.961	83.44000244
735.526	74.54000092
736.091	67.19999695
736.655	83.22000122
737.220	79.63999939
737.785	79.19999695
738.349	78.69999695
738.914	60
739.478	73.90000153
740.042	71.13999939
740.607	66.76000214
741.171	67.04000092
741.735	65.73999786
742.299	58.18000031
742.864	66.26000214
743.428	59.72000122
743.992	68.69999695
744.556	58.38000107
745.120	60.54000092
745.684	45.31999969
746.248	58.54000092
746.811	52.91999817
747.375	57.79999924
747.939	47.08000183
748.503	56.24000168
749.066	40
749.630	38.24000168
750.193	30.73999977
750.757	30.81999969
751.320	35.18000031
751.884	30.68000031
752.447	24.45999908
753.010	29.62000084
753.573	16.12000084
754.137	19.5
754.700	18.04000092
755.263	21
755.826	21.68000031
756.389	17.97999954
756.952	20.21999931
757.515	7.71999979
758.078	17.15999985
758.641	22.97999954
759.203	15.92000008
759.766	17.65999985
760.329	2.440000057
760.891	6.21999979
761.454	-1.779999971
762.016	8.140000343
762.579	-8.399999619
763.141	17.04000092
763.704	0.639999986
764.266	5.840000153
764.828	-0.25999999
765.391	7.820000172
765.953	2.220000029
766.515	5.980000019
767.077	-0.400000006
767.639	2.700000048
768.201	2.319999933
768.763	-2.359999895
769.325	1.120000005
769.887	2.099999905
770.449	0.239999995
771.010	-8.140000343
771.572	-1.25999999
772.134	-4.320000172
772.695	-7.400000095
773.257	0.560000002
773.818	5.659999847
774.380	0.360000014
774.941	-0.560000002
775.503	-5.079999924
776.064	-2.559999943
776.625	-1.620000005
777.187	3.200000048
777.748	5.320000172
778.309	-6.320000172
778.870	-5.539999962
779.431	-4.559999943
779.992	0.100000001
780.553	2.200000048
781.114	2.059999943
781.675	-3.200000048
782.235	8
782.796	0.699999988
783.357	5.920000076
783.918	-12.38000011
784.478	0.620000005
785.039	2.400000095
785.599	1.919999957
786.160	-4.880000114
786.720	-9.06000042
787.280	2.059999943
787.841	-1.320000052
788.401	-17.65999985
788.961	-3.640000105
789.521	-0.379999995
790.081	-4.380000114
790.641	-1.960000038
791.201	8.43999958
791.761	-2.339999914
792.321	-0.519999981
792.881	2.279999971
793.441	-5.079999924
794.001	-1
794.560	-5.179999828
795.120	-11.57999992
795.680	4.019999981
796.239	3.279999971
796.799	-0.100000001
797.358	-5.699999809
797.918	-2.279999971
798.477	3.400000095
799.036	-4.920000076
799.596	-4.400000095
800.155	3.019999981
800.714	-15.89999962
801.273	-5.480000019
801.832	-5.440000057
802.391	-10.57999992
802.950	-6.019999981
803.509	1.799999952
804.068	-0.219999999
804.627	-10.42000008
805.186	-3.859999895
805.744	-0.839999974
806.303	1.980000019
806.862	6.519999981
807.420	-16.79999924
807.979	-0.319999993
808.537	-6.71999979
809.096	-3.339999914
809.654	-1.299999952
810.212	-0.100000001
810.771	-13.60000038
811.329	-13.60000038
811.887	-14.14000034
812.445	-3.920000076
813.003	-7.960000038
813.561	0.460000008
814.119	-16.87999916
814.677	-8.100000381
815.235	-1
815.793	-11.10000038
816.351	-4.820000172
816.908	-8.100000381
817.466	-11.76000023
818.024	-11.15999985
818.581	-5.659999847
819.139	-16.04000092
819.696	-3.859999895
820.253	-4.400000095
820.811	-14.22000027
821.368	3.599999905
821.925	-7.760000229
822.483	6.559999943
823.040	-19.95999908
823.597	-3.519999981
824.154	-16.45999908
824.711	-6.699999809
825.268	-17.89999962
825.825	-15.26000023
826.382	-9.140000343
826.939	-9.960000038
827.495	-14.35999966
828.052	-10.43999958
828.609	-14.77999973
829.165	-6.559999943
829.722	-18.15999985
830.278	-0.039999999
830.835	-11.02000046
831.391	-16.86000061
831.948	-4.159999847
832.504	-6.920000076
833.060	-16.52000046
833.616	-13.47999954
834.172	-9.100000381
834.729	-4.639999866
835.285	-19.13999939
835.841	-6.699999809
836.397	-1.879999995
836.952	-6.239999771
837.508	-7.239999771
838.064	-14.73999977
838.620	-19.37999916
839.176	-8.479999542
839.731	-14.92000008
840.287	-0.200000003
840.842	-9.119999886
841.398	-13.61999989
841.953	-15.14000034
842.509	-10.68000031
843.064	-20.39999962
843.619	-15.72000027
844.174	-5.460000038
844.730	-5.519999981
845.285	-2.640000105
845.840	-2.619999886
846.395	-8.359999657
846.950	-18.78000069
847.505	-15.27999973
848.060	-5.78000021
848.614	-7.659999847
849.169	-3
849.724	-13.96000004
850.278	-4
850.833	-16
851.388	-12.10000038
851.942	-8.920000076
852.497	-4.639999866
853.051	2.460000038
853.605	-3.720000029
854.160	-14.39999962
854.714	-14.02000046
855.268	-16
855.822	-15.39999962
856.376	-18.31999969
856.930	-4.5
857.484	-8.619999886
858.038	-1.539999962
858.592	-17.05999947
859.146	-13.88000011
859.700	-13.35999966
860.253	-13.27999973
860.807	-11.65999985
861.361	-8.380000114
861.914	-2.960000038
862.468	-9.760000229
863.021	-15.30000019
863.575	-11.31999969
864.128	-14.42000008
864.681	-0.939999998
865.235	-17.86000061
865.788	-4.579999924
866.341	-15.93999958
866.894	-2.019999981
867.447	-5.340000153
868.000	-11.22000027
868.553	-13.76000023
869.106	-8.600000381
869.659	-17.07999992
870.211	-8.479999542
870.764	-21.5
871.317	-1.120000005
871.870	-5
872.422	-13.47999954
872.975	-14.39999962
873.527	-16.31999969
874.079	-16.94000053
874.632	-6.480000019
875.184	-19.94000053
875.736	-9.380000114
876.289	-14.56000042
876.841	-21.05999947
877.393	-21.71999931
877.945	-10.02000046
878.497	-18.94000053
879.049	-8.140000343
879.601	-8.420000076
880.152	-7.539999962
880.704	-22.95999908
881.256	-7
881.808	-23.36000061
882.359	-19.81999969
882.911	-16.39999962
883.462	-10.26000023
884.014	-23.21999931
884.565	-17.79999924
885.117	-18.81999969
885.668	-8.619999886
886.219	-11.39999962
886.770	-3.380000114
887.321	-14.88000011
887.872	-7.340000153
888.424	-19.29999924
888.974	-10.77999973
889.525	-16.23999977
890.076	-20.79999924
890.627	-21.42000008
891.178	-20.39999962
891.729	-20.70000076
892.279	-22.62000084
892.830	-21.15999985
893.380	-14.56000042
893.931	-28.47999954
894.481	-8.319999695
895.032	-12.14000034
895.582	-15.43999958
896.132	-23.54000092
896.682	-12.14000034
897.233	-16.05999947
897.783	-10.65999985
898.333	-23.37999916
898.883	-10.65999985
899.433	-22.68000031
899.983	-16.60000038
900.533	-15.5
901.082	-15.43999958
901.632	-17.23999977
902.182	-15.15999985
902.731	-20.94000053
903.281	-24.65999985
903.831	-12.27999973
904.380	-10.5
904.929	-24.73999977
905.479	-17.63999939
906.028	-17.39999962
906.577	-18.86000061
907.127	-22.28000069
907.676	-16.54000092
908.225	-21.23999977
908.774	-3.380000114
909.323	-8.600000381
909.872	-25.29999924
910.421	-10.38000011
910.969	-17.97999954
911.518	-27.76000023
912.067	-20.92000008
912.616	-23.78000069
913.164	-20.21999931
913.713	-22.65999985
914.261	-11.15999985
914.810	-21.79999924
915.358	-15.68000031
915.906	-25.21999931
916.455	-19.45999908
917.003	-17.18000031
917.551	-21.42000008
918.099	-17.23999977
918.647	-20.62000084
919.195	-13.30000019
919.743	-16.63999939
920.291	-31.12000084
920.839	-20.68000031
921.387	-18.84000015
921.934	-18.55999947
922.482	-31.97999954
923.030	-11.96000004
923.577	-23.07999992
924.125	-19.92000008
924.672	-27.29999924
925.219	-9.880000114
925.767	-27.31999969
926.314	-16.28000069
926.861	-16.44000053
927.409	-17.95999908
927.956	-22.55999947
928.503	-27.12000084
929.050	-23.07999992
929.597	-24.86000061
930.143	-25.87999916
930.690	-7.420000076
931.237	-18.78000069
931.784	-22.18000031
932.331	-21.23999977
932.877	-24.20000076
933.424	-27.5
933.970	-17.97999954
934.517	-10.52000046
935.063	-11.26000023
935.609	-16.02000046
936.156	-17.76000023
936.702	-17.20000076
937.248	-22.34000015
937.794	-15.22000027
938.340	-13.43999958
938.886	-25.18000031
939.432	-24.34000015
939.978	-21.34000015
940.524	-12.38000011
941.070	-29.70000076
941.616	-15.07999992
942.161	-26.65999985
942.707	-20.71999931
943.252	-21.34000015
943.798	-19.20000076
944.343	-21.36000061
944.889	-8.279999733
945.434	-16.45999908
945.979	-13
946.525	-27.86000061
947.070	-26.81999969
947.615	-25.5
948.160	-27.70000076
948.705	-23.20000076
949.250	-20.57999992
949.795	-30.79999924
950.340	-12.93999958
950.884	-21.21999931
951.429	-15.57999992
951.974	-14.27999973
952.518	-25.21999931
953.063	-14.06000042
953.607	-23.28000069
954.152	-24.89999962
954.696	-13.15999985
955.241	-18.92000008
955.785	-19.55999947
956.329	-19.18000031
956.873	-16.12000084
957.417	-28.63999939
957.961	-19.26000023
958.505	-24.87999916
959.049	-13.61999989
959.593	-27.71999931
960.137	-13.5
960.681	-18.28000069
961.224	-23.42000008
961.768	-31.52000046
962.312	-17.07999992
962.855	-19.42000008
963.399	-23.76000023
963.942	-13.19999981
964.486	-20.45999908
965.029	-21.73999977
965.572	-19.45999908
966.115	-19.78000069
966.658	-21.44000053
967.202	-19.89999962
967.745	-14.27999973
968.288	-23.39999962
968.830	-20.86000061
969.373	-31.57999992
969.916	-21.42000008
970.459	-28.78000069
971.002	-27.68000031
971.544	-27.60000038
972.087	-20.68000031
972.629	-34
973.172	-21.04000092
973.714	-29.55999947
974.256	-16.94000053
974.799	-24.34000015
975.341	-21.78000069
975.883	-22.02000046
976.425	-22.78000069
976.967	-29.47999954
977.509	-23.39999962
978.051	-25.13999939
978.593	-18.95999908
979.135	-24.86000061
979.677	-18
980.218	-31.89999962
980.760	-22.13999939
981.302	-31.31999969
981.843	-27.15999985
982.385	-24.02000046
982.926	-28.84000015
983.467	-27.63999939
984.009	-18.76000023
984.550	-23.05999947
985.091	-28.05999947
985.632	-37.90000153
986.173	-26.36000061
986.714	-20.28000069
987.255	-24.63999939
987.796	-24.13999939
988.337	-27.45999908
988.878	-21.31999969
989.419	-27.04000092
989.959	-26.42000008
990.500	-30.42000008
991.040	-35.11999893
991.581	-23.84000015
992.121	-31.20000076
992.662	-22.26000023
993.202	-23.37999916
993.742	-25.28000069
994.282	-34.25999832
994.823	-20.81999969
995.363	-21.78000069
995.903	-25.28000069
996.443	-18
996.983	-8.840000153
997.522	-22.60000038
998.062	-17.12000084
998.602	-26.07999992
999.142	-10.39999962
999.681	-29.71999931
1000.221	-31.92000008
1000.760	-22.26000023
1001.300	-22.87999916
1001.839	-30.86000061
1002.379	-25.04000092
1002.918	-21.21999931
1003.457	-36.91999817
1003.996	-36.27999878
1004.535	-17.31999969
1005.074	-16.36000061
1005.613	-25.10000038
1006.152	-21.54000092
1006.691	-22.94000053
1007.230	-36.47999954
1007.769	-14.31999969
1008.307	-28.84000015
1008.846	-30.20000076
1009.384	-18.65999985
1009.923	-32.93999863
1010.461	-26.54000092
1011.000	-14.26000023
1011.538	-19.78000069
1012.076	-20.13999939
1012.615	-21.60000038
1013.153	-20.5
1013.691	-21.39999962
1014.229	-15.84000015
1014.767	-22.52000046
1015.305	-25.15999985
1015.843	-23.78000069
1016.380	-21.36000061
1016.918	-19.42000008
1017.456	-20.23999977
1017.993	-25.20000076
1018.531	-9.760000229
1019.069	-26.84000015
1019.606	-17.55999947
1020.143	-18.76000023
1020.681	-17.70000076
1021.218	-24.44000053
1021.755	-17.76000023
1022.292	-22.52000046
1022.829	-13.73999977
1023.366	-27.29999924
1023.903	-12.46000004
1024.440	-24.47999954
1024.977	-7.179999828
1025.514	-19.71999931
1026.051	-14.10000038
1026.587	-23.44000053
1027.124	-24.86000061
1027.661	-16.79999924
1028.197	-25.54000092
1028.733	-18.04000092
1029.270	-7.480000019
1029.806	-24.89999962
1030.342	-17.12000084
1030.879	-19.89999962
1031.415	-17.29999924
1031.951	-17.89999962
1032.487	-4.559999943
1033.023	-17.37999916
1033.559	-6.860000134
1034.094	-15.27999973
1034.630	-24.39999962
1035.166	-17.28000069
1035.702	-12.03999996
1036.237	-29.36000061
1036.773	-6.659999847
1037.308	-13.11999989
1037.844	-10.15999985
1038.379	-11.43999958
1038.914	-14
1039.449	-17.36000061
1039.985	-7.599999905
1040.520	-17
1041.055	-13.85999966
1041.590	-10.65999985
1042.125	-9.300000191
1042.660	-9.199999809
1043.194	-15.22000027
1043.729	-7.440000057
1044.264	-8.359999657
1044.798	-10.81999969
1045.333	-9.539999962
1045.868	-4.860000134
1046.402	-1.399999976
1046.936	-2.880000114
1047.471	4.21999979
1048.005	-9.06000042
1048.539	-12.39999962
1049.073	-11.85999966
1049.607	6.21999979
1050.141	-9.760000229
1050.675	-6.139999866
1051.209	-4.260000229
1051.743	-4.420000076
1052.277	-18.54000092
1052.811	-11.07999992
1053.344	-5.880000114
1053.878	0.879999995
1054.411	-9.279999733
1054.945	0.059999999
1055.478	-3.559999943
1056.012	-9.140000343
1056.545	-7.659999847
1057.078	-1.080000043
1057.611	-1
1058.145	-2.359999895
1058.678	-3.640000105
1059.211	2.380000114
1059.744	-2.599999905
1060.276	-0.100000001
1060.809	-11.34000015
1061.342	-22.5
1061.875	-6.300000191
1062.407	-7.980000019
1062.940	-3.019999981
1063.472	-1.519999981
1064.005	-5.619999886
1064.537	-12.84000015
1065.069	-8.720000267
1065.602	-1.960000038
1066.134	-13.57999992
1066.666	-10.56000042
1067.198	-14.57999992
1067.730	-15.56000042
1068.262	-11.02000046
1068.794	7.539999962
1069.326	-7.599999905
1069.857	-15.03999996
1070.389	-11.61999989
1070.921	-10.03999996
1071.452	-9.899999619
1071.984	-5.800000191
1072.515	-8.140000343
1073.047	-14.43999958
1073.578	-17.29999924
1074.109	-22.94000053
1074.641	-13.14000034
1075.172	4.840000153
1075.703	-12.73999977
1076.234	-6.360000134
1076.765	-20.42000008
1077.296	-9.760000229
1077.826	-10.84000015
1078.357	-8.859999657
1078.888	-17.55999947
1079.419	-13.84000015
1079.949	-23.95999908
1080.480	-8.779999733
1081.010	-17.73999977
1081.541	-14.80000019
1082.071	-25.54000092
1082.601	-17.05999947
1083.131	-16.95999908
1083.661	-0.079999998
1084.192	-17.23999977
1084.722	-11.23999977
1085.252	-16.84000015
1085.781	-10.14000034
1086.311	-13.80000019
1086.841	0.75999999
1087.371	-19.18000031
1087.901	-3.680000067
1088.430	-25.23999977
1088.960	-8.43999958
1089.489	-14.42000008
1090.019	-19.57999992
1090.548	-13.61999989
1091.077	-14.73999977
1091.606	-20.23999977
1092.135	-10.64000034
1092.665	-12.68000031
1093.194	-14.53999996
1093.723	-19.5
1094.251	-19.62000084
1094.780	-20.86000061
1095.309	-14.31999969
1095.838	-26.44000053
1096.366	-18.5
1096.895	-16.54000092
1097.424	-19.92000008
1097.952	-19.65999985
1098.480	-8.300000191
1099.009	-11.97999954
1099.537	-21.73999977
1100.065	-18.02000046
